{
    "resourceType": "Bundle",
    "id": "53e7da06-be64-4d7e-a565-551c63283111",
    "identifier": {
        "system": "https://tools.ietf.org/html/rfc4122",
        "value": "3ef611c8-fc48-400f-b4a0-aada3dc76afc"
    },
    "type": "message",
    "entry": [{
        "fullUrl": "urn:uuid:53e7da06-be64-4d7e-a565-551c63283111",
        "resource": {
            "resourceType": "MessageHeader",
            "id": "c5cf9d15-2209-442f-8b36-66dc498d09ce",
            "eventCoding": {
                "system": "https://fhir.nhs.uk/CodeSystem/message-event",
                "code": "prescription-order",
                "display": "Prescription Order"
            },
            "destination": [{
                "endpoint": "urn:nhs-uk:addressing:ods:FCW64",
                "receiver": {
                    "identifier": {
                        "system": "https://fhir.nhs.uk/Id/ods-organization-code",
                        "value": "FCW64"
                    }
                }
            }],
            "sender": {
                "reference": "urn:uuid:3b3e70f7-79cd-4b6e-b3b5-03a3f6a2a114",
                "identifier": {
                    "system": "https://fhir.nhs.uk/Id/ods-organization-code",
                    "value": "694X0"
                },
                "display": "Clark|Jackie"
            },
            "source": {
                "endpoint": "urn:nhs-uk:addressing:ods:694X0"
            },
            "focus": [{
                "reference": "urn:uuid:a0a6f95f-c17c-4643-b0a7-ed4f5414569d",
                "type": "MedicationRequest"
            }, {
                "reference": "urn:uuid:0c5f797a-6200-479b-9b61-564b7345be2e",
                "type": "MedicationRequest"
            }, {
                "reference": "urn:uuid:f41dc5a0-d7be-46c7-93f8-1994a70004e1",
                "type": "MedicationRequest"
            }, {
                "reference": "urn:uuid:03c5c1b2-3db1-4cfd-8696-269f4fc2e773",
                "type": "MedicationRequest"
            }, {
                "reference": "urn:uuid:78a4341c-05c8-48bf-9377-b7f24a22016d",
                "type": "Patient"
            }]
        }
    }, {
        "fullUrl": "urn:uuid:78a4341c-05c8-48bf-9377-b7f24a22016d",
        "resource": {
            "resourceType": "Patient",
            "id": "78a4341c-05c8-48bf-9377-b7f24a22016d",
            "identifier": [{
                "extension": [{
                    "url": "https://fhir.hl7.org.uk/StructureDefinition/Extension-UKCore-NHSNumberVerificationStatus",
                    "valueCodeableConcept": {
                        "coding": [{
                            "system": "https://fhir.hl7.org.uk/CodeSystem/UKCore-NHSNumberVerificationStatus",
                            "code": "01",
                            "display": "Number present and verified"
                        }]
                    }
                }],
                "system": "https://fhir.nhs.uk/Id/nhs-number",
                "value": "9657847419"
            }],
            "name": [{
                "use": "usual",
                "family": "HOMAN",
                "given": ["Amos Lloyd"]
            }],
            "telecom": [{
                "system": "phone",
                "value": "07000123123"
            }],
            "gender": "male",
            "birthDate": "1985-03-12",
            "address": [{
                "use": "home",
                "line": ["1 Dalmatian Way", "Broughton", "BRIGG"],
                "postalCode": "DN20 0ET"
            }],
            "generalPractitioner": [{
                "identifier": {
                    "system": "https://fhir.nhs.uk/Id/ods-organization-code",
                    "value": "A20047"
                }
            }]
        }
    }, {
        "fullUrl": "urn:uuid:deea5057-65dd-4eee-82b3-859a733183df",
        "resource": {
            "resourceType": "Practitioner",
            "id": "deea5057-65dd-4eee-82b3-859a733183df",
            "identifier": [{
                "system": "https://fhir.nhs.uk/Id/sds-user-id",
                "value": "555252291108"
            }, {
                "system": "https://fhir.hl7.org.uk/Id/gmc-number",
                "value": "1231234"
            }],
            "name": [{
                "use": "usual",
                "family": "Clark",
                "given": ["Jackie"]
            }],
            "gender": "unknown"
        }
    }, {
        "fullUrl": "urn:uuid:3b3e70f7-79cd-4b6e-b3b5-03a3f6a2a114",
        "resource": {
            "resourceType": "PractitionerRole",
            "id": "3b3e70f7-79cd-4b6e-b3b5-03a3f6a2a114",
            "identifier": [{
                "system": "https://fhir.nhs.uk/Id/sds-role-profile-id",
                "value": "555086415105"
            }],
            "practitioner": {
                "reference": "urn:uuid:deea5057-65dd-4eee-82b3-859a733183df"
            },
            "organization": {
                "reference": "urn:uuid:e6f21bea-05e9-4b08-9ed1-585a9926dc75"
            },
            "code": [{
                "coding": [{
                    "system": "https://fhir.hl7.org.uk/CodeSystem/UKCore-SDSJobRoleName",
                    "code": "R8000",
                    "display": "Clinical Practitioner Access Role"
                }]
            }],
            "healthcareService": [{
                "reference": "urn:uuid:b19e9bcb-b1c7-4d74-bba7-f57fc33bccb9",
                "display": "SOUTHAMPTON GENERAL HOSPITAL LABORATORY"
            }],
            "telecom": [{
                "system": "phone",
                "value": "02380798431",
                "use": "work"
            }]
        }
    }, {
        "fullUrl": "urn:uuid:e6f21bea-05e9-4b08-9ed1-585a9926dc75",
        "resource": {
            "resourceType": "Organization",
            "id": "e6f21bea-05e9-4b08-9ed1-585a9926dc75",
            "identifier": [{
                "system": "https://fhir.nhs.uk/Id/ods-organization-code",
                "value": "694X0"
            }],
            "type": [{
                "coding": [{
                    "system": "https://fhir.nhs.uk/CodeSystem/organisation-role",
                    "code": "173",
                    "display": "PATHOLOGY LAB"
                }]
            }],
            "name": "SOUTHAMPTON GENERAL HOSPITAL LABORATORY",
            "telecom": [{
                "system": "phone",
                "value": "02380798431",
                "use": "work"
            }],
            "address": [{
                "line": ["SOUTHAMPTON GENERAL HOSPITAL", "TREMONA ROAD", "SOUTHAMPTON", "HAMPSHIRE"],
                "postalCode": "SO16 6YD"
            }]
        }
    }, {
        "fullUrl": "urn:uuid:b19e9bcb-b1c7-4d74-bba7-f57fc33bccb9",
        "resource": {
            "resourceType": "HealthcareService",
            "id": "b19e9bcb-b1c7-4d74-bba7-f57fc33bccb9",
            "identifier": [{
                "use": "usual",
                "system": "https://fhir.nhs.uk/Id/ods-organization-code",
                "value": "694X0"
            }],
            "active": true,
            "providedBy": {
                "identifier": {
                    "system": "https://fhir.nhs.uk/Id/ods-organization-code",
                    "value": "694X0"
                }
            },
            "location": [{
                "reference": "urn:uuid:a1d11d40-613a-47ea-aeeb-19e8203eacc7"
            }],
            "name": "SOUTHAMPTON GENERAL HOSPITAL LABORATORY",
            "telecom": [{
                "system": "phone",
                "value": "02380798431",
                "use": "work"
            }]
        }
    }, {
        "fullUrl": "urn:uuid:a1d11d40-613a-47ea-aeeb-19e8203eacc7",
        "resource": {
            "resourceType": "Location",
            "id": "a1d11d40-613a-47ea-aeeb-19e8203eacc7",
            "status": "active",
            "mode": "instance",
            "address": {
                "line": ["SOUTHAMPTON GENERAL HOSPITAL", "TREMONA ROAD", "SOUTHAMPTON"],
                "postalCode": "SO16 6YD"
            }
        }
    }, {
        "fullUrl": "urn:uuid:a0a6f95f-c17c-4643-b0a7-ed4f5414569d",
        "resource": {
            "resourceType": "MedicationRequest",
            "id": "a0a6f95f-c17c-4643-b0a7-ed4f5414569d",
            "extension": [{
                "url": "https://fhir.nhs.uk/StructureDefinition/Extension-DM-PrescriptionType",
                "valueCoding": {
                    "system": "https://fhir.nhs.uk/CodeSystem/prescription-type",
                    "code": "1001",
                    "display": "Outpatient Community Prescriber - Medical Prescriber"
                }
            }, {
                "extension": [{
                    "url": "quantityWords",
                    "valueString": "one hundred"
                }, {
                    "url": "schedule",
                    "valueCoding": {
                        "system": "https://fhir.nhs.uk/CodeSystem/medicationrequest-controlled-drug",
                        "code": "CD2",
                        "display": "Schedule 2"
                    }
                }],
                "url": "https://fhir.nhs.uk/StructureDefinition/Extension-DM-ControlledDrug"
            }],
            "identifier": [{
                "system": "https://fhir.nhs.uk/Id/prescription-order-item-number",
                "value": "a0a6f95f-c17c-4643-b0a7-ed4f5414569d"
            }],
            "status": "active",
            "intent": "order",
            "category": [{
                "coding": [{
                    "system": "http://terminology.hl7.org/CodeSystem/medicationrequest-category",
                    "code": "outpatient",
                    "display": "Outpatient"
                }]
            }],
            "medicationCodeableConcept": {
                "coding": [{
                    "system": "http://snomed.info/sct",
                    "code": "3897311000001109",
                    "display": "Morphine tartrate 10mg/1ml / Cyclizine tartrate 50mg/1ml solution for injection ampoules"
                }]
            },
            "subject": {
                "reference": "urn:uuid:78a4341c-05c8-48bf-9377-b7f24a22016d"
            },
            "authoredOn": "2021-06-25T14:23:17+01:00",
            "requester": {
                "reference": "urn:uuid:3b3e70f7-79cd-4b6e-b3b5-03a3f6a2a114"
            },
            "groupIdentifier": {
                "extension": [{
                    "url": "https://fhir.nhs.uk/StructureDefinition/Extension-DM-PrescriptionId",
                    "valueIdentifier": {
                        "system": "https://fhir.nhs.uk/Id/prescription",
                        "value": "1223f1a9-2873-4ccf-b735-c4c382924ca3"
                    }
                }],
                "system": "https://fhir.nhs.uk/Id/prescription-order-number",
                "value": "44419F-0694X0-024FE3"
            },
            "courseOfTherapyType": {
                "coding": [{
                    "system": "http://terminology.hl7.org/CodeSystem/medicationrequest-course-of-therapy",
                    "code": "acute",
                    "display": "Short course (acute) therapy"
                }]
            },
            "dosageInstruction": [{
                "text": "test prescription"
            }],
            "dispenseRequest": {
                "extension": [{
                    "url": "https://fhir.nhs.uk/StructureDefinition/Extension-DM-PerformerSiteType",
                    "valueCoding": {
                        "system": "https://fhir.nhs.uk/CodeSystem/dispensing-site-preference",
                        "code": "P1",
                        "display": "Other (e.g. Community Pharmacy)"
                    }
                }],
                "quantity": {
                    "value": 100,
                    "unit": "ampoule",
                    "system": "http://snomed.info/sct",
                    "code": "413516001"
                },
                "performer": {
                    "identifier": {
                        "system": "https://fhir.nhs.uk/Id/ods-organization-code",
                        "value": "FCW64"
                    }
                }
            },
            "substitution": {
                "allowedBoolean": false
            }
        }
    }, {
        "fullUrl": "urn:uuid:0c5f797a-6200-479b-9b61-564b7345be2e",
        "resource": {
            "resourceType": "MedicationRequest",
            "id": "0c5f797a-6200-479b-9b61-564b7345be2e",
            "extension": [{
                "url": "https://fhir.nhs.uk/StructureDefinition/Extension-DM-PrescriptionType",
                "valueCoding": {
                    "system": "https://fhir.nhs.uk/CodeSystem/prescription-type",
                    "code": "1001",
                    "display": "Outpatient Community Prescriber - Medical Prescriber"
                }
            }, {
                "extension": [{
                    "url": "quantityWords",
                    "valueString": "twenty"
                }, {
                    "url": "schedule",
                    "valueCoding": {
                        "system": "https://fhir.nhs.uk/CodeSystem/medicationrequest-controlled-drug",
                        "code": "CD3",
                        "display": "Schedule 3"
                    }
                }],
                "url": "https://fhir.nhs.uk/StructureDefinition/Extension-DM-ControlledDrug"
            }],
            "identifier": [{
                "system": "https://fhir.nhs.uk/Id/prescription-order-item-number",
                "value": "0c5f797a-6200-479b-9b61-564b7345be2e"
            }],
            "status": "active",
            "intent": "order",
            "category": [{
                "coding": [{
                    "system": "http://terminology.hl7.org/CodeSystem/medicationrequest-category",
                    "code": "outpatient",
                    "display": "Outpatient"
                }]
            }],
            "medicationCodeableConcept": {
                "coding": [{
                    "system": "http://snomed.info/sct",
                    "code": "35913611000001107",
                    "display": "Buprenorphine 300micrograms/1ml solution for injection ampoules"
                }]
            },
            "subject": {
                "reference": "urn:uuid:78a4341c-05c8-48bf-9377-b7f24a22016d"
            },
            "authoredOn": "2021-06-25T14:23:17+01:00",
            "requester": {
                "reference": "urn:uuid:3b3e70f7-79cd-4b6e-b3b5-03a3f6a2a114"
            },
            "groupIdentifier": {
                "extension": [{
                    "url": "https://fhir.nhs.uk/StructureDefinition/Extension-DM-PrescriptionId",
                    "valueIdentifier": {
                        "system": "https://fhir.nhs.uk/Id/prescription",
                        "value": "1223f1a9-2873-4ccf-b735-c4c382924ca3"
                    }
                }],
                "system": "https://fhir.nhs.uk/Id/prescription-order-number",
                "value": "44419F-0694X0-024FE3"
            },
            "courseOfTherapyType": {
                "coding": [{
                    "system": "http://terminology.hl7.org/CodeSystem/medicationrequest-course-of-therapy",
                    "code": "acute",
                    "display": "Short course (acute) therapy"
                }]
            },
            "dosageInstruction": [{
                "text": "test"
            }],
            "dispenseRequest": {
                "extension": [{
                    "url": "https://fhir.nhs.uk/StructureDefinition/Extension-DM-PerformerSiteType",
                    "valueCoding": {
                        "system": "https://fhir.nhs.uk/CodeSystem/dispensing-site-preference",
                        "code": "P1",
                        "display": "Other (e.g. Community Pharmacy)"
                    }
                }],
                "quantity": {
                    "value": 20,
                    "unit": "ampoule",
                    "system": "http://snomed.info/sct",
                    "code": "413516001"
                },
                "performer": {
                    "identifier": {
                        "system": "https://fhir.nhs.uk/Id/ods-organization-code",
                        "value": "FCW64"
                    }
                }
            },
            "substitution": {
                "allowedBoolean": false
            }
        }
    }, {
        "fullUrl": "urn:uuid:f41dc5a0-d7be-46c7-93f8-1994a70004e1",
        "resource": {
            "resourceType": "MedicationRequest",
            "id": "f41dc5a0-d7be-46c7-93f8-1994a70004e1",
            "extension": [{
                "url": "https://fhir.nhs.uk/StructureDefinition/Extension-DM-PrescriptionType",
                "valueCoding": {
                    "system": "https://fhir.nhs.uk/CodeSystem/prescription-type",
                    "code": "1001",
                    "display": "Outpatient Community Prescriber - Medical Prescriber"
                }
            }, {
                "extension": [ {
                    "url": "schedule",
                    "valueCoding": {
                        "system": "https://fhir.nhs.uk/CodeSystem/medicationrequest-controlled-drug",
                        "code": "CD4",
                        "display": "Schedule 4"
                    }
                }],
                "url": "https://fhir.nhs.uk/StructureDefinition/Extension-DM-ControlledDrug"
            }],
            "identifier": [{
                "system": "https://fhir.nhs.uk/Id/prescription-order-item-number",
                "value": "f41dc5a0-d7be-46c7-93f8-1994a70004e1"
            }],
            "status": "active",
            "intent": "order",
            "category": [{
                "coding": [{
                    "system": "http://terminology.hl7.org/CodeSystem/medicationrequest-category",
                    "code": "outpatient",
                    "display": "Outpatient"
                }]
            }],
            "medicationCodeableConcept": {
                "coding": [{
                    "system": "http://snomed.info/sct",
                    "code": "322897008",
                    "display": "Clonazepam 500microgram tablets"
                }]
            },
            "subject": {
                "reference": "urn:uuid:78a4341c-05c8-48bf-9377-b7f24a22016d"
            },
            "authoredOn": "2021-06-25T14:23:17+01:00",
            "requester": {
                "reference": "urn:uuid:3b3e70f7-79cd-4b6e-b3b5-03a3f6a2a114"
            },
            "groupIdentifier": {
                "extension": [{
                    "url": "https://fhir.nhs.uk/StructureDefinition/Extension-DM-PrescriptionId",
                    "valueIdentifier": {
                        "system": "https://fhir.nhs.uk/Id/prescription",
                        "value": "1223f1a9-2873-4ccf-b735-c4c382924ca3"
                    }
                }],
                "system": "https://fhir.nhs.uk/Id/prescription-order-number",
                "value": "44419F-0694X0-024FE3"
            },
            "courseOfTherapyType": {
                "coding": [{
                    "system": "http://terminology.hl7.org/CodeSystem/medicationrequest-course-of-therapy",
                    "code": "acute",
                    "display": "Short course (acute) therapy"
                }]
            },
            "dosageInstruction": [{
                "text": "Take ONE Four Times Daily"
            }],
            "dispenseRequest": {
                "extension": [{
                    "url": "https://fhir.nhs.uk/StructureDefinition/Extension-DM-PerformerSiteType",
                    "valueCoding": {
                        "system": "https://fhir.nhs.uk/CodeSystem/dispensing-site-preference",
                        "code": "P1",
                        "display": "Other (e.g. Community Pharmacy)"
                    }
                }],
                "quantity": {
                    "value": 28,
                    "unit": "tablet",
                    "system": "http://snomed.info/sct",
                    "code": "428673006"
                },
                "performer": {
                    "identifier": {
                        "system": "https://fhir.nhs.uk/Id/ods-organization-code",
                        "value": "FCW64"
                    }
                }
            },
            "substitution": {
                "allowedBoolean": false
            }
        }
    }, {
        "fullUrl": "urn:uuid:03c5c1b2-3db1-4cfd-8696-269f4fc2e773",
        "resource": {
            "resourceType": "MedicationRequest",
            "id": "03c5c1b2-3db1-4cfd-8696-269f4fc2e773",
            "extension": [{
                "url": "https://fhir.nhs.uk/StructureDefinition/Extension-DM-PrescriptionType",
                "valueCoding": {
                    "system": "https://fhir.nhs.uk/CodeSystem/prescription-type",
                    "code": "1001",
                    "display": "Outpatient Community Prescriber - Medical Prescriber"
                }
            }, {
                "extension": [ {
                    "url": "schedule",
                    "valueCoding": {
                        "system": "https://fhir.nhs.uk/CodeSystem/medicationrequest-controlled-drug",
                        "code": "CD5",
                        "display": "Schedule 5"
                    }
                }],
                "url": "https://fhir.nhs.uk/StructureDefinition/Extension-DM-ControlledDrug"
            }],
            "identifier": [{
                "system": "https://fhir.nhs.uk/Id/prescription-order-item-number",
                "value": "03c5c1b2-3db1-4cfd-8696-269f4fc2e773"
            }],
            "status": "active",
            "intent": "order",
            "category": [{
                "coding": [{
                    "system": "http://terminology.hl7.org/CodeSystem/medicationrequest-category",
                    "code": "outpatient",
                    "display": "Outpatient"
                }]
            }],
            "medicationCodeableConcept": {
                "coding": [{
                    "system": "http://snomed.info/sct",
                    "code": "4367311000001106",
                    "display": "Morphine 1mg/5ml / Peppermint oil 1.5microlitres/5ml oral solution"
                }]
            },
            "subject": {
                "reference": "urn:uuid:78a4341c-05c8-48bf-9377-b7f24a22016d"
            },
            "authoredOn": "2021-06-25T14:23:17+01:00",
            "requester": {
                "reference": "urn:uuid:3b3e70f7-79cd-4b6e-b3b5-03a3f6a2a114"
            },
            "groupIdentifier": {
                "extension": [{
                    "url": "https://fhir.nhs.uk/StructureDefinition/Extension-DM-PrescriptionId",
                    "valueIdentifier": {
                        "system": "https://fhir.nhs.uk/Id/prescription",
                        "value": "1223f1a9-2873-4ccf-b735-c4c382924ca3"
                    }
                }],
                "system": "https://fhir.nhs.uk/Id/prescription-order-number",
                "value": "44419F-0694X0-024FE3"
            },
            "courseOfTherapyType": {
                "coding": [{
                    "system": "http://terminology.hl7.org/CodeSystem/medicationrequest-course-of-therapy",
                    "code": "acute",
                    "display": "Short course (acute) therapy"
                }]
            },
            "dosageInstruction": [{
                "text": "test"
            }],
            "dispenseRequest": {
                "extension": [{
                    "url": "https://fhir.nhs.uk/StructureDefinition/Extension-DM-PerformerSiteType",
                    "valueCoding": {
                        "system": "https://fhir.nhs.uk/CodeSystem/dispensing-site-preference",
                        "code": "P1",
                        "display": "Other (e.g. Community Pharmacy)"
                    }
                }],
                "quantity": {
                    "value": 250,
                    "unit": "ml",
                    "system": "http://snomed.info/sct",
                    "code": "258773002"
                },
                "performer": {
                    "identifier": {
                        "system": "https://fhir.nhs.uk/Id/ods-organization-code",
                        "value": "FCW64"
                    }
                }
            },
            "substitution": {
                "allowedBoolean": false
            }
        }
    }, {
        "fullUrl": "urn:uuid:e56b5da1-7bf6-46d1-9534-0eff8bd5f29e",
        "resource": {
            "resourceType": "Provenance",
            "id": "e56b5da1-7bf6-46d1-9534-0eff8bd5f29e",
            "target": [{
                "reference": "urn:uuid:a0a6f95f-c17c-4643-b0a7-ed4f5414569d",
                "type": "MedicationRequest"
            }, {
                "reference": "urn:uuid:0c5f797a-6200-479b-9b61-564b7345be2e",
                "type": "MedicationRequest"
            }, {
                "reference": "urn:uuid:f41dc5a0-d7be-46c7-93f8-1994a70004e1",
                "type": "MedicationRequest"
            }, {
                "reference": "urn:uuid:03c5c1b2-3db1-4cfd-8696-269f4fc2e773",
                "type": "MedicationRequest"
            }],
            "recorded": "2021-06-25T14:23:20.7928326+01:00",
            "agent": [{
                "who": {
                    "reference": "urn:uuid:3b3e70f7-79cd-4b6e-b3b5-03a3f6a2a114",
                    "type": "PractitionerRole"
                }
            }],
            "signature": [{
                "type": [{
                    "system": "urn:iso-astm:E1762-95:2013",
                    "code": "1.2.840.10065.1.12.1.1",
                    "display": "Author's Signature"
                }],
                "when": "2021-06-25T14:23:20.7928326+01:00",
                "who": {
                    "reference": "urn:uuid:3b3e70f7-79cd-4b6e-b3b5-03a3f6a2a114",
                    "type": "PractitionerRole"
                },
                "data": ""
            }]
        }
    }]
}
