{
    "resourceType": "Bundle",
    "id": "f9c47300-62e4-48b1-97be-7f7f096646f5",
    "identifier": {
        "system": "https://tools.ietf.org/html/rfc4122",
        "value": "f549bdb3-5bb7-4f75-9c12-d9b83064f9da"
    },
    "type": "message",
    "entry": [
        {
            "fullUrl": "urn:uuid:f9c47300-62e4-48b1-97be-7f7f096646f5",
            "resource": {
                "resourceType": "MessageHeader",
                "id": "699f577c-7e56-4f8c-914a-6a175300c47b",
                "eventCoding": {
                    "system": "https://fhir.nhs.uk/CodeSystem/message-event",
                    "code": "prescription-order",
                    "display": "Prescription Order"
                },
                "destination": [
                    {
                        "endpoint": "urn:nhs-uk:addressing:ods:FCW64",
                        "receiver": {
                            "identifier": {
                                "system": "https://fhir.nhs.uk/Id/ods-organization-code",
                                "value": "FCW64"
                            }
                        }
                    }
                ],
                "sender": {
                    "reference": "urn:uuid:7e8c1252-2c2d-4286-a4bf-9a90f4d19b90",
                    "identifier": {
                        "system": "https://fhir.nhs.uk/Id/ods-organization-code",
                        "value": "694X0"
                    },
                    "display": "Clark|Jackie"
                },
                "source": {
                    "endpoint": "urn:nhs-uk:addressing:ods:694X0"
                },
                "focus": [
                    {
                        "reference": "urn:uuid:81684c1f-3073-4962-a75e-3a2d1b58a62e",
                        "type": "MedicationRequest"
                    },
                    {
                        "reference": "urn:uuid:4aaaa1bb-3762-4bc4-aa6b-b5f5778a613e",
                        "type": "MedicationRequest"
                    },
                    {
                        "reference": "urn:uuid:b9186961-c245-4605-ac40-30d67801d1a9",
                        "type": "MedicationRequest"
                    },
                    {
                        "reference": "urn:uuid:0afd299d-a8bb-4714-8c86-c6f34cb4933c",
                        "type": "MedicationRequest"
                    },
                    {
                        "reference": "urn:uuid:b9f662b8-c574-4392-8f66-1c5d4bd76ccc",
                        "type": "Patient"
                    }
                ]
            }
        },
        {
            "fullUrl": "urn:uuid:b9f662b8-c574-4392-8f66-1c5d4bd76ccc",
            "resource": {
                "resourceType": "Patient",
                "id": "b9f662b8-c574-4392-8f66-1c5d4bd76ccc",
                "identifier": [
                    {
                        "extension": [
                            {
                                "url": "https://fhir.hl7.org.uk/StructureDefinition/Extension-UKCore-NHSNumberVerificationStatus",
                                "valueCodeableConcept": {
                                    "coding": [
                                        {
                                            "system": "https://fhir.hl7.org.uk/CodeSystem/UKCore-NHSNumberVerificationStatus",
                                            "code": "01",
                                            "display": "Number present and verified"
                                        }
                                    ]
                                }
                            }
                        ],
                        "system": "https://fhir.nhs.uk/Id/nhs-number",
                        "value": "9657847419"
                    }
                ],
                "name": [
                    {
                        "use": "usual",
                        "family": "HOMAN",
                        "given": [
                            "Amos Lloyd"
                        ]
                    }
                ],
                "telecom": [
                    {
                        "system": "phone",
                        "value": "07000123123"
                    }
                ],
                "gender": "male",
                "birthDate": "1985-03-12",
                "address": [
                    {
                        "use": "home",
                        "line": [
                            "1 Dalmatian Way",
                            "Broughton",
                            "BRIGG"
                        ],
                        "postalCode": "DN20 0ET"
                    }
                ],
                "generalPractitioner": [
                    {
                        "identifier": {
                            "system": "https://fhir.nhs.uk/Id/ods-organization-code",
                            "value": "A20047"
                        }
                    }
                ]
            }
        },
        {
            "fullUrl": "urn:uuid:9d627f0d-72d2-49d8-83cc-2cb8584c47a9",
            "resource": {
                "resourceType": "Practitioner",
                "id": "9d627f0d-72d2-49d8-83cc-2cb8584c47a9",
                "identifier": [
                    {
                        "system": "https://fhir.nhs.uk/Id/sds-user-id",
                        "value": "555252291108"
                    },
                    {
                        "system": "https://fhir.hl7.org.uk/Id/gmc-number",
                        "value": "1231234"
                    }
                ],
                "name": [
                    {
                        "use": "usual",
                        "family": "Clark",
                        "given": [
                            "Jackie"
                        ]
                    }
                ],
                "gender": "unknown"
            }
        },
        {
            "fullUrl": "urn:uuid:7e8c1252-2c2d-4286-a4bf-9a90f4d19b90",
            "resource": {
                "resourceType": "PractitionerRole",
                "id": "7e8c1252-2c2d-4286-a4bf-9a90f4d19b90",
                "identifier": [
                    {
                        "system": "https://fhir.nhs.uk/Id/sds-role-profile-id",
                        "value": "555086415105"
                    }
                ],
                "practitioner": {
                    "reference": "urn:uuid:9d627f0d-72d2-49d8-83cc-2cb8584c47a9"
                },
                "organization": {
                    "reference": "urn:uuid:aa89a662-f749-4f15-bec4-d1145343db81"
                },
                "code": [
                    {
                        "coding": [
                            {
                                "system": "https://fhir.hl7.org.uk/CodeSystem/UKCore-SDSJobRoleName",
                                "code": "R8000",
                                "display": "Clinical Practitioner Access Role"
                            }
                        ]
                    }
                ],
                "healthcareService": [
                    {
                        "reference": "urn:uuid:0247dd78-6ee5-4b68-9f13-0803fcdeadcd",
                        "display": "SOUTHAMPTON GENERAL HOSPITAL LABORATORY"
                    }
                ],
                "telecom": [
                    {
                        "system": "phone",
                        "value": "02380798431",
                        "use": "work"
                    }
                ]
            }
        },
        {
            "fullUrl": "urn:uuid:aa89a662-f749-4f15-bec4-d1145343db81",
            "resource": {
                "resourceType": "Organization",
                "id": "aa89a662-f749-4f15-bec4-d1145343db81",
                "identifier": [
                    {
                        "system": "https://fhir.nhs.uk/Id/ods-organization-code",
                        "value": "694X0"
                    }
                ],
                "type": [
                    {
                        "coding": [
                            {
                                "system": "https://fhir.nhs.uk/CodeSystem/organisation-role",
                                "code": "173",
                                "display": "PATHOLOGY LAB"
                            }
                        ]
                    }
                ],
                "name": "SOUTHAMPTON GENERAL HOSPITAL LABORATORY",
                "telecom": [
                    {
                        "system": "phone",
                        "value": "02380798431",
                        "use": "work"
                    }
                ],
                "address": [
                    {
                        "line": [
                            "SOUTHAMPTON GENERAL HOSPITAL",
                            "TREMONA ROAD",
                            "SOUTHAMPTON",
                            "HAMPSHIRE"
                        ],
                        "postalCode": "SO16 6YD"
                    }
                ]
            }
        },
        {
            "fullUrl": "urn:uuid:0247dd78-6ee5-4b68-9f13-0803fcdeadcd",
            "resource": {
                "resourceType": "HealthcareService",
                "id": "0247dd78-6ee5-4b68-9f13-0803fcdeadcd",
                "identifier": [
                    {
                        "use": "usual",
                        "system": "https://fhir.nhs.uk/Id/ods-organization-code",
                        "value": "694X0"
                    }
                ],
                "active": true,
                "providedBy": {
                    "identifier": {
                        "system": "https://fhir.nhs.uk/Id/ods-organization-code",
                        "value": "694X0"
                    }
                },
                "location": [
                    {
                        "reference": "urn:uuid:701ac5cf-af98-473c-b471-1b4eaff507c4"
                    }
                ],
                "name": "SOUTHAMPTON GENERAL HOSPITAL LABORATORY",
                "telecom": [
                    {
                        "system": "phone",
                        "value": "02380798431",
                        "use": "work"
                    }
                ]
            }
        },
        {
            "fullUrl": "urn:uuid:701ac5cf-af98-473c-b471-1b4eaff507c4",
            "resource": {
                "resourceType": "Location",
                "id": "701ac5cf-af98-473c-b471-1b4eaff507c4",
                "status": "active",
                "mode": "instance",
                "address": {
                    "line": [
                        "SOUTHAMPTON GENERAL HOSPITAL",
                        "TREMONA ROAD",
                        "SOUTHAMPTON"
                    ],
                    "postalCode": "SO16 6YD"
                }
            }
        },
        {
            "fullUrl": "urn:uuid:81684c1f-3073-4962-a75e-3a2d1b58a62e",
            "resource": {
                "resourceType": "MedicationRequest",
                "id": "81684c1f-3073-4962-a75e-3a2d1b58a62e",
                "extension": [
                    {
                        "url": "https://fhir.nhs.uk/StructureDefinition/Extension-DM-PrescriptionType",
                        "valueCoding": {
                            "system": "https://fhir.nhs.uk/CodeSystem/prescription-type",
                            "code": "1001",
                            "display": "Outpatient Community Prescriber - Medical Prescriber"
                        }
                    },
                    {
                        "url": "https://fhir.nhs.uk/StructureDefinition/Extension-DM-PrescriptionEndorsement",
                        "valueCodeableConcept": {
                            "coding": [
                                {
                                    "system": "https://fhir.nhs.uk/CodeSystem/medicationrequest-endorsement",
                                    "code": "SLS",
                                    "display": "Selected List Scheme"
                                }
                            ]
                        }
                    },
                    {
                        "url": "https://fhir.nhs.uk/StructureDefinition/Extension-DM-ControlledDrug",
                        "extension": [
                            {
                                "url": "schedule",
                                "valueCoding": {
                                    "system": "https://fhir.nhs.uk/CodeSystem/medicationrequest-controlled-drug",
                                    "code": "CD4",
                                    "display": "Schedule 4"
                                }
                            }
                        ]
                    }
                ],
                "identifier": [
                    {
                        "system": "https://fhir.nhs.uk/Id/prescription-order-item-number",
                        "value": "81684c1f-3073-4962-a75e-3a2d1b58a62e"
                    }
                ],
                "status": "active",
                "intent": "order",
                "category": [
                    {
                        "coding": [
                            {
                                "system": "http://terminology.hl7.org/CodeSystem/medicationrequest-category",
                                "code": "outpatient",
                                "display": "Outpatient"
                            }
                        ]
                    }
                ],
                "medicationCodeableConcept": {
                    "coding": [
                        {
                            "system": "http://snomed.info/sct",
                            "code": "321272000",
                            "display": "Clobazam 10mg tablets"
                        }
                    ]
                },
                "subject": {
                    "reference": "urn:uuid:b9f662b8-c574-4392-8f66-1c5d4bd76ccc"
                },
                "authoredOn": "2021-06-25T14:51:37+01:00",
                "requester": {
                    "reference": "urn:uuid:7e8c1252-2c2d-4286-a4bf-9a90f4d19b90"
                },
                "groupIdentifier": {
                    "extension": [
                        {
                            "url": "https://fhir.nhs.uk/StructureDefinition/Extension-DM-PrescriptionId",
                            "valueIdentifier": {
                                "system": "https://fhir.nhs.uk/Id/prescription",
                                "value": "5318a181-dc39-4900-bce9-1e135edf5557"
                            }
                        }
                    ],
                    "system": "https://fhir.nhs.uk/Id/prescription-order-number",
                    "value": "71776C-0694X0-0250AL"
                },
                "courseOfTherapyType": {
                    "coding": [
                        {
                            "system": "http://terminology.hl7.org/CodeSystem/medicationrequest-course-of-therapy",
                            "code": "acute",
                            "display": "Short course (acute) therapy"
                        }
                    ]
                },
                "dosageInstruction": [
                    {
                        "text": "test"
                    }
                ],
                "dispenseRequest": {
                    "extension": [
                        {
                            "url": "https://fhir.nhs.uk/StructureDefinition/Extension-DM-PerformerSiteType",
                            "valueCoding": {
                                "system": "https://fhir.nhs.uk/CodeSystem/dispensing-site-preference",
                                "code": "P1",
                                "display": "Other (e.g. Community Pharmacy)"
                            }
                        }
                    ],
                    "quantity": {
                        "value": 12,
                        "unit": "tablet",
                        "system": "http://snomed.info/sct",
                        "code": "428673006"
                    },
                    "performer": {
                        "identifier": {
                            "system": "https://fhir.nhs.uk/Id/ods-organization-code",
                            "value": "FCW64"
                        }
                    }
                },
                "substitution": {
                    "allowedBoolean": false
                }
            }
        },
        {
            "fullUrl": "urn:uuid:4aaaa1bb-3762-4bc4-aa6b-b5f5778a613e",
            "resource": {
                "resourceType": "MedicationRequest",
                "id": "4aaaa1bb-3762-4bc4-aa6b-b5f5778a613e",
                "extension": [
                    {
                        "url": "https://fhir.nhs.uk/StructureDefinition/Extension-DM-PrescriptionType",
                        "valueCoding": {
                            "system": "https://fhir.nhs.uk/CodeSystem/prescription-type",
                            "code": "1001",
                            "display": "Outpatient Community Prescriber - Medical Prescriber"
                        }
                    },
                    {
                        "url": "https://fhir.nhs.uk/StructureDefinition/Extension-DM-PrescriptionEndorsement",
                        "valueCodeableConcept": {
                            "coding": [
                                {
                                    "system": "https://fhir.nhs.uk/CodeSystem/medicationrequest-endorsement",
                                    "code": "FS",
                                    "display": "Sexual Health"
                                }
                            ]
                        }
                    }
                ],
                "identifier": [
                    {
                        "system": "https://fhir.nhs.uk/Id/prescription-order-item-number",
                        "value": "4aaaa1bb-3762-4bc4-aa6b-b5f5778a613e"
                    }
                ],
                "status": "active",
                "intent": "order",
                "category": [
                    {
                        "coding": [
                            {
                                "system": "http://terminology.hl7.org/CodeSystem/medicationrequest-category",
                                "code": "outpatient",
                                "display": "Outpatient"
                            }
                        ]
                    }
                ],
                "medicationCodeableConcept": {
                    "coding": [
                        {
                            "system": "http://snomed.info/sct",
                            "code": "322236009",
                            "display": "Paracetamol 500mg tablets"
                        }
                    ]
                },
                "subject": {
                    "reference": "urn:uuid:b9f662b8-c574-4392-8f66-1c5d4bd76ccc"
                },
                "authoredOn": "2021-06-25T14:51:37+01:00",
                "requester": {
                    "reference": "urn:uuid:7e8c1252-2c2d-4286-a4bf-9a90f4d19b90"
                },
                "groupIdentifier": {
                    "extension": [
                        {
                            "url": "https://fhir.nhs.uk/StructureDefinition/Extension-DM-PrescriptionId",
                            "valueIdentifier": {
                                "system": "https://fhir.nhs.uk/Id/prescription",
                                "value": "5318a181-dc39-4900-bce9-1e135edf5557"
                            }
                        }
                    ],
                    "system": "https://fhir.nhs.uk/Id/prescription-order-number",
                    "value": "71776C-0694X0-0250AL"
                },
                "courseOfTherapyType": {
                    "coding": [
                        {
                            "system": "http://terminology.hl7.org/CodeSystem/medicationrequest-course-of-therapy",
                            "code": "acute",
                            "display": "Short course (acute) therapy"
                        }
                    ]
                },
                "dosageInstruction": [
                    {
                        "text": "test"
                    }
                ],
                "dispenseRequest": {
                    "extension": [
                        {
                            "url": "https://fhir.nhs.uk/StructureDefinition/Extension-DM-PerformerSiteType",
                            "valueCoding": {
                                "system": "https://fhir.nhs.uk/CodeSystem/dispensing-site-preference",
                                "code": "P1",
                                "display": "Other (e.g. Community Pharmacy)"
                            }
                        }
                    ],
                    "quantity": {
                        "value": 12,
                        "unit": "tablet",
                        "system": "http://snomed.info/sct",
                        "code": "428673006"
                    },
                    "performer": {
                        "identifier": {
                            "system": "https://fhir.nhs.uk/Id/ods-organization-code",
                            "value": "FCW64"
                        }
                    }
                },
                "substitution": {
                    "allowedBoolean": false
                }
            }
        },
        {
            "fullUrl": "urn:uuid:b9186961-c245-4605-ac40-30d67801d1a9",
            "resource": {
                "resourceType": "MedicationRequest",
                "id": "b9186961-c245-4605-ac40-30d67801d1a9",
                "extension": [
                    {
                        "url": "https://fhir.nhs.uk/StructureDefinition/Extension-DM-PrescriptionType",
                        "valueCoding": {
                            "system": "https://fhir.nhs.uk/CodeSystem/prescription-type",
                            "code": "1001",
                            "display": "Outpatient Community Prescriber - Medical Prescriber"
                        }
                    },
                    {
                        "url": "https://fhir.nhs.uk/StructureDefinition/Extension-DM-PrescriptionEndorsement",
                        "valueCodeableConcept": {
                            "coding": [
                                {
                                    "system": "https://fhir.nhs.uk/CodeSystem/medicationrequest-endorsement",
                                    "code": "CC",
                                    "display": "Contraceptive"
                                }
                            ]
                        }
                    }
                ],
                "identifier": [
                    {
                        "system": "https://fhir.nhs.uk/Id/prescription-order-item-number",
                        "value": "b9186961-c245-4605-ac40-30d67801d1a9"
                    }
                ],
                "status": "active",
                "intent": "order",
                "category": [
                    {
                        "coding": [
                            {
                                "system": "http://terminology.hl7.org/CodeSystem/medicationrequest-category",
                                "code": "outpatient",
                                "display": "Outpatient"
                            }
                        ]
                    }
                ],
                "medicationCodeableConcept": {
                    "coding": [
                        {
                            "system": "http://snomed.info/sct",
                            "code": "587711000001100",
                            "display": "Dianette tablets (Bayer Plc)"
                        }
                    ]
                },
                "subject": {
                    "reference": "urn:uuid:b9f662b8-c574-4392-8f66-1c5d4bd76ccc"
                },
                "authoredOn": "2021-06-25T14:51:37+01:00",
                "requester": {
                    "reference": "urn:uuid:7e8c1252-2c2d-4286-a4bf-9a90f4d19b90"
                },
                "groupIdentifier": {
                    "extension": [
                        {
                            "url": "https://fhir.nhs.uk/StructureDefinition/Extension-DM-PrescriptionId",
                            "valueIdentifier": {
                                "system": "https://fhir.nhs.uk/Id/prescription",
                                "value": "5318a181-dc39-4900-bce9-1e135edf5557"
                            }
                        }
                    ],
                    "system": "https://fhir.nhs.uk/Id/prescription-order-number",
                    "value": "71776C-0694X0-0250AL"
                },
                "courseOfTherapyType": {
                    "coding": [
                        {
                            "system": "http://terminology.hl7.org/CodeSystem/medicationrequest-course-of-therapy",
                            "code": "acute",
                            "display": "Short course (acute) therapy"
                        }
                    ]
                },
                "dosageInstruction": [
                    {
                        "text": "test"
                    }
                ],
                "dispenseRequest": {
                    "extension": [
                        {
                            "url": "https://fhir.nhs.uk/StructureDefinition/Extension-DM-PerformerSiteType",
                            "valueCoding": {
                                "system": "https://fhir.nhs.uk/CodeSystem/dispensing-site-preference",
                                "code": "P1",
                                "display": "Other (e.g. Community Pharmacy)"
                            }
                        }
                    ],
                    "quantity": {
                        "value": 28,
                        "unit": "tablet",
                        "system": "http://snomed.info/sct",
                        "code": "428673006"
                    },
                    "performer": {
                        "identifier": {
                            "system": "https://fhir.nhs.uk/Id/ods-organization-code",
                            "value": "FCW64"
                        }
                    }
                },
                "substitution": {
                    "allowedBoolean": false
                }
            }
        },
        {
            "fullUrl": "urn:uuid:0afd299d-a8bb-4714-8c86-c6f34cb4933c",
            "resource": {
                "resourceType": "MedicationRequest",
                "id": "0afd299d-a8bb-4714-8c86-c6f34cb4933c",
                "extension": [
                    {
                        "url": "https://fhir.nhs.uk/StructureDefinition/Extension-DM-PrescriptionType",
                        "valueCoding": {
                            "system": "https://fhir.nhs.uk/CodeSystem/prescription-type",
                            "code": "1001",
                            "display": "Outpatient Community Prescriber - Medical Prescriber"
                        }
                    },
                    {
                        "url": "https://fhir.nhs.uk/StructureDefinition/Extension-DM-PrescriptionEndorsement",
                        "valueCodeableConcept": {
                            "coding": [
                                {
                                    "system": "https://fhir.nhs.uk/CodeSystem/medicationrequest-endorsement",
                                    "code": "ACBS",
                                    "display": "Advisory Committee on Borderline Substances"
                                }
                            ]
                        }
                    },
                    {
                        "url": "https://fhir.nhs.uk/StructureDefinition/Extension-DM-PrescriptionEndorsement",
                        "valueCodeableConcept": {
                            "coding": [
                                {
                                    "system": "https://fhir.nhs.uk/CodeSystem/medicationrequest-endorsement",
                                    "code": "AF",
                                    "display": "Food replacement/food supplement products"
                                }
                            ]
                        }
                    }
                ],
                "identifier": [
                    {
                        "system": "https://fhir.nhs.uk/Id/prescription-order-item-number",
                        "value": "0afd299d-a8bb-4714-8c86-c6f34cb4933c"
                    }
                ],
                "status": "active",
                "intent": "order",
                "category": [
                    {
                        "coding": [
                            {
                                "system": "http://terminology.hl7.org/CodeSystem/medicationrequest-category",
                                "code": "outpatient",
                                "display": "Outpatient"
                            }
                        ]
                    }
                ],
                "medicationCodeableConcept": {
                    "coding": [
                        {
                            "system": "http://snomed.info/sct",
                            "code": "20994811000001103",
                            "display": "Fortisip Bottle (Flavour Not Specified)"
                        }
                    ]
                },
                "subject": {
                    "reference": "urn:uuid:b9f662b8-c574-4392-8f66-1c5d4bd76ccc"
                },
                "authoredOn": "2021-06-25T14:51:37+01:00",
                "requester": {
                    "reference": "urn:uuid:7e8c1252-2c2d-4286-a4bf-9a90f4d19b90"
                },
                "groupIdentifier": {
                    "extension": [
                        {
                            "url": "https://fhir.nhs.uk/StructureDefinition/Extension-DM-PrescriptionId",
                            "valueIdentifier": {
                                "system": "https://fhir.nhs.uk/Id/prescription",
                                "value": "5318a181-dc39-4900-bce9-1e135edf5557"
                            }
                        }
                    ],
                    "system": "https://fhir.nhs.uk/Id/prescription-order-number",
                    "value": "71776C-0694X0-0250AL"
                },
                "courseOfTherapyType": {
                    "coding": [
                        {
                            "system": "http://terminology.hl7.org/CodeSystem/medicationrequest-course-of-therapy",
                            "code": "acute",
                            "display": "Short course (acute) therapy"
                        }
                    ]
                },
                "dosageInstruction": [
                    {
                        "text": "test prescription"
                    }
                ],
                "dispenseRequest": {
                    "extension": [
                        {
                            "url": "https://fhir.nhs.uk/StructureDefinition/Extension-DM-PerformerSiteType",
                            "valueCoding": {
                                "system": "https://fhir.nhs.uk/CodeSystem/dispensing-site-preference",
                                "code": "P1",
                                "display": "Other (e.g. Community Pharmacy)"
                            }
                        }
                    ],
                    "quantity": {
                        "value": 100,
                        "unit": "ml",
                        "system": "http://snomed.info/sct",
                        "code": "258773002"
                    },
                    "performer": {
                        "identifier": {
                            "system": "https://fhir.nhs.uk/Id/ods-organization-code",
                            "value": "FCW64"
                        }
                    }
                },
                "substitution": {
                    "allowedBoolean": false
                }
            }
        },
        {
            "fullUrl": "urn:uuid:71962ae8-26b7-47a6-97ce-ab8638a8e3c9",
            "resource": {
                "resourceType": "Provenance",
                "id": "71962ae8-26b7-47a6-97ce-ab8638a8e3c9",
                "target": [
                    {
                        "reference": "urn:uuid:81684c1f-3073-4962-a75e-3a2d1b58a62e",
                        "type": "MedicationRequest"
                    },
                    {
                        "reference": "urn:uuid:4aaaa1bb-3762-4bc4-aa6b-b5f5778a613e",
                        "type": "MedicationRequest"
                    },
                    {
                        "reference": "urn:uuid:b9186961-c245-4605-ac40-30d67801d1a9",
                        "type": "MedicationRequest"
                    },
                    {
                        "reference": "urn:uuid:0afd299d-a8bb-4714-8c86-c6f34cb4933c",
                        "type": "MedicationRequest"
                    }
                ],
                "recorded": "2021-06-25T14:51:38.6845295+01:00",
                "agent": [
                    {
                        "who": {
                            "reference": "urn:uuid:7e8c1252-2c2d-4286-a4bf-9a90f4d19b90",
                            "type": "PractitionerRole"
                        }
                    }
                ],
                "signature": [
                    {
                        "type": [
                            {
                                "system": "urn:iso-astm:E1762-95:2013",
                                "code": "1.2.840.10065.1.12.1.1",
                                "display": "Author's Signature"
                            }
                        ],
                        "when": "2021-06-25T14:51:38.6845295+01:00",
                        "who": {
                            "reference": "urn:uuid:7e8c1252-2c2d-4286-a4bf-9a90f4d19b90",
                            "type": "PractitionerRole"
                        },
                        "data": ""
                    }
                ]
            }
        }
    ]
}