{
    "resourceType": "Bundle",
    "id": "667b1f24-97dc-49d5-a665-3ae595a863a9",
    "identifier": {
        "system": "https://tools.ietf.org/html/rfc4122",
        "value": "00eac378-55f3-47e3-aa2a-be55bf2454a4"
    },
    "type": "message",
    "entry": [{
        "fullUrl": "urn:uuid:667b1f24-97dc-49d5-a665-3ae595a863a9",
        "resource": {
            "resourceType": "MessageHeader",
            "id": "5f98c9b0-647b-4309-a161-dea5f2030b7b",
            "eventCoding": {
                "system": "https://fhir.nhs.uk/CodeSystem/message-event",
                "code": "prescription-order",
                "display": "Prescription Order"
            },
            "destination": [{
                "endpoint": "urn:nhs-uk:addressing:ods:FCW64",
                "receiver": {
                    "identifier": {
                        "system": "https://fhir.nhs.uk/Id/ods-organization-code",
                        "value": "FCW64"
                    }
                }
            }],
            "sender": {
                "reference": "urn:uuid:605f8a55-355e-4345-b92a-70c4119ba072",
                "identifier": {
                    "system": "https://fhir.nhs.uk/Id/ods-organization-code",
                    "value": "694X0"
                },
                "display": "Clark|Jackie"
            },
            "source": {
                "endpoint": "urn:nhs-uk:addressing:ods:694X0"
            },
            "focus": [{
                "reference": "urn:uuid:6571b0fb-6ab8-45c4-a87b-be7d8d87a460",
                "type": "MedicationRequest"
            }, {
                "reference": "urn:uuid:4a3864c4-697b-40dd-85c7-7398caa2e5f9",
                "type": "MedicationRequest"
            }, {
                "reference": "urn:uuid:709bd782-a464-4ab9-aa14-4635f353d09b",
                "type": "MedicationRequest"
            }, {
                "reference": "urn:uuid:5820fb48-29cb-4c18-bc56-3f239cc40c5a",
                "type": "MedicationRequest"
            }, {
                "reference": "urn:uuid:ba3c0a6e-253c-4f4c-be2d-5e9332a3ef29",
                "type": "Patient"
            }]
        }
    }, {
        "fullUrl": "urn:uuid:ba3c0a6e-253c-4f4c-be2d-5e9332a3ef29",
        "resource": {
            "resourceType": "Patient",
            "id": "ba3c0a6e-253c-4f4c-be2d-5e9332a3ef29",
            "identifier": [{
                "extension": [{
                    "url": "https://fhir.hl7.org.uk/StructureDefinition/Extension-UKCore-NHSNumberVerificationStatus",
                    "valueCodeableConcept": {
                        "coding": [{
                            "system": "https://fhir.hl7.org.uk/CodeSystem/UKCore-NHSNumberVerificationStatus",
                            "code": "01",
                            "display": "Number present and verified"
                        }]
                    }
                }],
                "system": "https://fhir.nhs.uk/Id/nhs-number",
                "value": "9657847419"
            }],
            "name": [{
                "use": "usual",
                "family": "HOMAN",
                "given": ["Amos Lloyd"]
            }],
            "telecom": [{
                "system": "phone",
                "value": "07000123123"
            }],
            "gender": "male",
            "birthDate": "1985-03-12",
            "address": [{
                "use": "home",
                "line": ["1 Dalmatian Way", "Broughton", "BRIGG"],
                "postalCode": "DN20 0ET"
            }],
            "generalPractitioner": [{
                "identifier": {
                    "system": "https://fhir.nhs.uk/Id/ods-organization-code",
                    "value": "A20047"
                }
            }]
        }
    }, {
        "fullUrl": "urn:uuid:fbfb161b-f9f8-4a97-a16c-8eda03d41010",
        "resource": {
            "resourceType": "Practitioner",
            "id": "fbfb161b-f9f8-4a97-a16c-8eda03d41010",
            "identifier": [{
                "system": "https://fhir.nhs.uk/Id/sds-user-id",
                "value": "555252291108"
            }, {
                "system": "https://fhir.hl7.org.uk/Id/gmc-number",
                "value": "1231234"
            }],
            "name": [{
                "use": "usual",
                "family": "Clark",
                "given": ["Jackie"]
            }],
            "gender": "unknown"
        }
    }, {
        "fullUrl": "urn:uuid:605f8a55-355e-4345-b92a-70c4119ba072",
        "resource": {
            "resourceType": "PractitionerRole",
            "id": "605f8a55-355e-4345-b92a-70c4119ba072",
            "identifier": [{
                "system": "https://fhir.nhs.uk/Id/sds-role-profile-id",
                "value": "555086415105"
            }],
            "practitioner": {
                "reference": "urn:uuid:fbfb161b-f9f8-4a97-a16c-8eda03d41010"
            },
            "organization": {
                "reference": "urn:uuid:cb03f050-4b4d-4827-aa0c-999fea1f2937"
            },
            "code": [{
                "coding": [{
                    "system": "https://fhir.hl7.org.uk/CodeSystem/UKCore-SDSJobRoleName",
                    "code": "R8000",
                    "display": "Clinical Practitioner Access Role"
                }]
            }],
            "healthcareService": [{
                "reference": "urn:uuid:0e4caeec-875f-43c0-a9bf-28cb5feaeb38",
                "display": "SOUTHAMPTON GENERAL HOSPITAL LABORATORY"
            }],
            "telecom": [{
                "system": "phone",
                "value": "02380798431",
                "use": "work"
            }]
        }
    }, {
        "fullUrl": "urn:uuid:cb03f050-4b4d-4827-aa0c-999fea1f2937",
        "resource": {
            "resourceType": "Organization",
            "id": "cb03f050-4b4d-4827-aa0c-999fea1f2937",
            "identifier": [{
                "system": "https://fhir.nhs.uk/Id/ods-organization-code",
                "value": "694X0"
            }],
            "type": [{
                "coding": [{
                    "system": "https://fhir.nhs.uk/CodeSystem/organisation-role",
                    "code": "173",
                    "display": "PATHOLOGY LAB"
                }]
            }],
            "name": "SOUTHAMPTON GENERAL HOSPITAL LABORATORY",
            "telecom": [{
                "system": "phone",
                "value": "02380798431",
                "use": "work"
            }],
            "address": [{
                "line": ["SOUTHAMPTON GENERAL HOSPITAL", "TREMONA ROAD", "SOUTHAMPTON", "HAMPSHIRE"],
                "postalCode": "SO16 6YD"
            }]
        }
    }, {
        "fullUrl": "urn:uuid:0e4caeec-875f-43c0-a9bf-28cb5feaeb38",
        "resource": {
            "resourceType": "HealthcareService",
            "id": "0e4caeec-875f-43c0-a9bf-28cb5feaeb38",
            "identifier": [{
                "use": "usual",
                "system": "https://fhir.nhs.uk/Id/ods-organization-code",
                "value": "694X0"
            }],
            "active": true,
            "providedBy": {
                "identifier": {
                    "system": "https://fhir.nhs.uk/Id/ods-organization-code",
                    "value": "694X0"
                }
            },
            "location": [{
                "reference": "urn:uuid:0b40b44e-2aaf-4182-ab28-885f9560f5dc"
            }],
            "name": "SOUTHAMPTON GENERAL HOSPITAL LABORATORY",
            "telecom": [{
                "system": "phone",
                "value": "02380798431",
                "use": "work"
            }]
        }
    }, {
        "fullUrl": "urn:uuid:0b40b44e-2aaf-4182-ab28-885f9560f5dc",
        "resource": {
            "resourceType": "Location",
            "id": "0b40b44e-2aaf-4182-ab28-885f9560f5dc",
            "status": "active",
            "mode": "instance",
            "address": {
                "line": ["SOUTHAMPTON GENERAL HOSPITAL", "TREMONA ROAD", "SOUTHAMPTON"],
                "postalCode": "SO16 6YD"
            }
        }
    }, {
        "fullUrl": "urn:uuid:6571b0fb-6ab8-45c4-a87b-be7d8d87a460",
        "resource": {
            "resourceType": "MedicationRequest",
            "id": "6571b0fb-6ab8-45c4-a87b-be7d8d87a460",
            "extension": [{
                "url": "https://fhir.nhs.uk/StructureDefinition/Extension-DM-PrescriptionType",
                "valueCoding": {
                    "system": "https://fhir.nhs.uk/CodeSystem/prescription-type",
                    "code": "1001",
                    "display": "Outpatient Community Prescriber - Medical Prescriber"
                }
            }],
            "identifier": [{
                "system": "https://fhir.nhs.uk/Id/prescription-order-item-number",
                "value": "6571b0fb-6ab8-45c4-a87b-be7d8d87a460"
            }],
            "status": "active",
            "intent": "order",
            "category": [{
                "coding": [{
                    "system": "http://terminology.hl7.org/CodeSystem/medicationrequest-category",
                    "code": "outpatient",
                    "display": "Outpatient"
                }]
            }],
            "medicationCodeableConcept": {
                "coding": [{
                    "system": "http://snomed.info/sct",
                    "code": "322236009",
                    "display": "Paracetamol 500mg tablets"
                }]
            },
            "subject": {
                "reference": "urn:uuid:ba3c0a6e-253c-4f4c-be2d-5e9332a3ef29"
            },
            "authoredOn": "2021-06-25T14:33:10+01:00",
            "requester": {
                "reference": "urn:uuid:605f8a55-355e-4345-b92a-70c4119ba072"
            },
            "groupIdentifier": {
                "extension": [{
                    "url": "https://fhir.nhs.uk/StructureDefinition/Extension-DM-PrescriptionId",
                    "valueIdentifier": {
                        "system": "https://fhir.nhs.uk/Id/prescription",
                        "value": "064ce280-8277-4e67-b2a9-8b9e891d8748"
                    }
                }],
                "system": "https://fhir.nhs.uk/Id/prescription-order-number",
                "value": "4A5953-0694X0-02502N"
            },
            "courseOfTherapyType": {
                "coding": [{
                    "system": "http://terminology.hl7.org/CodeSystem/medicationrequest-course-of-therapy",
                    "code": "acute",
                    "display": "Short course (acute) therapy"
                }]
            },
            "dosageInstruction": [{
                "text": "test"
            }],
            "dispenseRequest": {
                "extension": [{
                    "url": "https://fhir.nhs.uk/StructureDefinition/Extension-DM-PerformerSiteType",
                    "valueCoding": {
                        "system": "https://fhir.nhs.uk/CodeSystem/dispensing-site-preference",
                        "code": "P1",
                        "display": "Other (e.g. Community Pharmacy)"
                    }
                }],
                "quantity": {
                    "value": 28,
                    "unit": "tablet",
                    "system": "http://snomed.info/sct",
                    "code": "428673006"
                },
                "performer": {
                    "identifier": {
                        "system": "https://fhir.nhs.uk/Id/ods-organization-code",
                        "value": "FCW64"
                    }
                }
            },
            "substitution": {
                "allowedBoolean": false
            }
        }
    }, {
        "fullUrl": "urn:uuid:4a3864c4-697b-40dd-85c7-7398caa2e5f9",
        "resource": {
            "resourceType": "MedicationRequest",
            "id": "4a3864c4-697b-40dd-85c7-7398caa2e5f9",
            "extension": [{
                "url": "https://fhir.nhs.uk/StructureDefinition/Extension-DM-PrescriptionType",
                "valueCoding": {
                    "system": "https://fhir.nhs.uk/CodeSystem/prescription-type",
                    "code": "1001",
                    "display": "Outpatient Community Prescriber - Medical Prescriber"
                }
            }],
            "identifier": [{
                "system": "https://fhir.nhs.uk/Id/prescription-order-item-number",
                "value": "4a3864c4-697b-40dd-85c7-7398caa2e5f9"
            }],
            "status": "active",
            "intent": "order",
            "category": [{
                "coding": [{
                    "system": "http://terminology.hl7.org/CodeSystem/medicationrequest-category",
                    "code": "outpatient",
                    "display": "Outpatient"
                }]
            }],
            "medicationCodeableConcept": {
                "coding": [{
                    "system": "http://snomed.info/sct",
                    "code": "329652003",
                    "display": "Ibuprofen 200mg tablets"
                }]
            },
            "subject": {
                "reference": "urn:uuid:ba3c0a6e-253c-4f4c-be2d-5e9332a3ef29"
            },
            "authoredOn": "2021-06-25T14:33:10+01:00",
            "requester": {
                "reference": "urn:uuid:605f8a55-355e-4345-b92a-70c4119ba072"
            },
            "groupIdentifier": {
                "extension": [{
                    "url": "https://fhir.nhs.uk/StructureDefinition/Extension-DM-PrescriptionId",
                    "valueIdentifier": {
                        "system": "https://fhir.nhs.uk/Id/prescription",
                        "value": "064ce280-8277-4e67-b2a9-8b9e891d8748"
                    }
                }],
                "system": "https://fhir.nhs.uk/Id/prescription-order-number",
                "value": "4A5953-0694X0-02502N"
            },
            "courseOfTherapyType": {
                "coding": [{
                    "system": "http://terminology.hl7.org/CodeSystem/medicationrequest-course-of-therapy",
                    "code": "acute",
                    "display": "Short course (acute) therapy"
                }]
            },
            "dosageInstruction": [{
                "text": "Take ONE To be taken three Times Daily"
            }],
            "dispenseRequest": {
                "extension": [{
                    "url": "https://fhir.nhs.uk/StructureDefinition/Extension-DM-PerformerSiteType",
                    "valueCoding": {
                        "system": "https://fhir.nhs.uk/CodeSystem/dispensing-site-preference",
                        "code": "P1",
                        "display": "Other (e.g. Community Pharmacy)"
                    }
                }],
                "quantity": {
                    "value": 14,
                    "unit": "tablet",
                    "system": "http://snomed.info/sct",
                    "code": "428673006"
                },
                "performer": {
                    "identifier": {
                        "system": "https://fhir.nhs.uk/Id/ods-organization-code",
                        "value": "FCW64"
                    }
                }
            },
            "substitution": {
                "allowedBoolean": false
            }
        }
    }, {
        "fullUrl": "urn:uuid:709bd782-a464-4ab9-aa14-4635f353d09b",
        "resource": {
            "resourceType": "MedicationRequest",
            "id": "709bd782-a464-4ab9-aa14-4635f353d09b",
            "extension": [{
                "url": "https://fhir.nhs.uk/StructureDefinition/Extension-DM-PrescriptionType",
                "valueCoding": {
                    "system": "https://fhir.nhs.uk/CodeSystem/prescription-type",
                    "code": "1001",
                    "display": "Outpatient Community Prescriber - Medical Prescriber"
                }
            }],
            "identifier": [{
                "system": "https://fhir.nhs.uk/Id/prescription-order-item-number",
                "value": "709bd782-a464-4ab9-aa14-4635f353d09b"
            }],
            "status": "active",
            "intent": "order",
            "category": [{
                "coding": [{
                    "system": "http://terminology.hl7.org/CodeSystem/medicationrequest-category",
                    "code": "outpatient",
                    "display": "Outpatient"
                }]
            }],
            "medicationCodeableConcept": {
                "coding": [{
                    "system": "http://snomed.info/sct",
                    "code": "324178009",
                    "display": "Erythromycin 250mg gastro-resistant tablets"
                }]
            },
            "subject": {
                "reference": "urn:uuid:ba3c0a6e-253c-4f4c-be2d-5e9332a3ef29"
            },
            "authoredOn": "2021-06-25T14:33:10+01:00",
            "requester": {
                "reference": "urn:uuid:605f8a55-355e-4345-b92a-70c4119ba072"
            },
            "groupIdentifier": {
                "extension": [{
                    "url": "https://fhir.nhs.uk/StructureDefinition/Extension-DM-PrescriptionId",
                    "valueIdentifier": {
                        "system": "https://fhir.nhs.uk/Id/prescription",
                        "value": "064ce280-8277-4e67-b2a9-8b9e891d8748"
                    }
                }],
                "system": "https://fhir.nhs.uk/Id/prescription-order-number",
                "value": "4A5953-0694X0-02502N"
            },
            "courseOfTherapyType": {
                "coding": [{
                    "system": "http://terminology.hl7.org/CodeSystem/medicationrequest-course-of-therapy",
                    "code": "acute",
                    "display": "Short course (acute) therapy"
                }]
            },
            "dosageInstruction": [{
                "text": "2 Four Times Daily"
            }],
            "dispenseRequest": {
                "extension": [{
                    "url": "https://fhir.nhs.uk/StructureDefinition/Extension-DM-PerformerSiteType",
                    "valueCoding": {
                        "system": "https://fhir.nhs.uk/CodeSystem/dispensing-site-preference",
                        "code": "P1",
                        "display": "Other (e.g. Community Pharmacy)"
                    }
                }],
                "quantity": {
                    "value": 28,
                    "unit": "tablet",
                    "system": "http://snomed.info/sct",
                    "code": "428673006"
                },
                "performer": {
                    "identifier": {
                        "system": "https://fhir.nhs.uk/Id/ods-organization-code",
                        "value": "FCW64"
                    }
                }
            },
            "substitution": {
                "allowedBoolean": false
            }
        }
    }, {
        "fullUrl": "urn:uuid:5820fb48-29cb-4c18-bc56-3f239cc40c5a",
        "resource": {
            "resourceType": "MedicationRequest",
            "id": "5820fb48-29cb-4c18-bc56-3f239cc40c5a",
            "extension": [{
                "url": "https://fhir.nhs.uk/StructureDefinition/Extension-DM-PrescriptionType",
                "valueCoding": {
                    "system": "https://fhir.nhs.uk/CodeSystem/prescription-type",
                    "code": "1001",
                    "display": "Outpatient Community Prescriber - Medical Prescriber"
                }
            }],
            "identifier": [{
                "system": "https://fhir.nhs.uk/Id/prescription-order-item-number",
                "value": "5820fb48-29cb-4c18-bc56-3f239cc40c5a"
            }],
            "status": "active",
            "intent": "order",
            "category": [{
                "coding": [{
                    "system": "http://terminology.hl7.org/CodeSystem/medicationrequest-category",
                    "code": "outpatient",
                    "display": "Outpatient"
                }]
            }],
            "medicationCodeableConcept": {
                "coding": [{
                    "system": "http://snomed.info/sct",
                    "code": "35901911000001104",
                    "display": "Amoxicillin 125mg/5ml oral suspension sugar free"
                }]
            },
            "subject": {
                "reference": "urn:uuid:ba3c0a6e-253c-4f4c-be2d-5e9332a3ef29"
            },
            "authoredOn": "2021-06-25T14:33:10+01:00",
            "requester": {
                "reference": "urn:uuid:605f8a55-355e-4345-b92a-70c4119ba072"
            },
            "groupIdentifier": {
                "extension": [{
                    "url": "https://fhir.nhs.uk/StructureDefinition/Extension-DM-PrescriptionId",
                    "valueIdentifier": {
                        "system": "https://fhir.nhs.uk/Id/prescription",
                        "value": "064ce280-8277-4e67-b2a9-8b9e891d8748"
                    }
                }],
                "system": "https://fhir.nhs.uk/Id/prescription-order-number",
                "value": "4A5953-0694X0-02502N"
            },
            "courseOfTherapyType": {
                "coding": [{
                    "system": "http://terminology.hl7.org/CodeSystem/medicationrequest-course-of-therapy",
                    "code": "acute",
                    "display": "Short course (acute) therapy"
                }]
            },
            "dosageInstruction": [{
                "text": "test"
            }],
            "dispenseRequest": {
                "extension": [{
                    "url": "https://fhir.nhs.uk/StructureDefinition/Extension-DM-PerformerSiteType",
                    "valueCoding": {
                        "system": "https://fhir.nhs.uk/CodeSystem/dispensing-site-preference",
                        "code": "P1",
                        "display": "Other (e.g. Community Pharmacy)"
                    }
                }],
                "quantity": {
                    "value": 150,
                    "unit": "ml",
                    "system": "http://snomed.info/sct",
                    "code": "258773002"
                },
                "performer": {
                    "identifier": {
                        "system": "https://fhir.nhs.uk/Id/ods-organization-code",
                        "value": "FCW64"
                    }
                }
            },
            "substitution": {
                "allowedBoolean": false
            }
        }
    }, {
        "fullUrl": "urn:uuid:493cf761-9ab2-4868-94cb-234830264fa0",
        "resource": {
            "resourceType": "Provenance",
            "id": "493cf761-9ab2-4868-94cb-234830264fa0",
            "target": [{
                "reference": "urn:uuid:6571b0fb-6ab8-45c4-a87b-be7d8d87a460",
                "type": "MedicationRequest"
            }, {
                "reference": "urn:uuid:4a3864c4-697b-40dd-85c7-7398caa2e5f9",
                "type": "MedicationRequest"
            }, {
                "reference": "urn:uuid:709bd782-a464-4ab9-aa14-4635f353d09b",
                "type": "MedicationRequest"
            }, {
                "reference": "urn:uuid:5820fb48-29cb-4c18-bc56-3f239cc40c5a",
                "type": "MedicationRequest"
            }],
            "recorded": "2021-06-25T14:33:12.4457116+01:00",
            "agent": [{
                "who": {
                    "reference": "urn:uuid:605f8a55-355e-4345-b92a-70c4119ba072",
                    "type": "PractitionerRole"
                }
            }],
            "signature": [{
                "type": [{
                    "system": "urn:iso-astm:E1762-95:2013",
                    "code": "1.2.840.10065.1.12.1.1",
                    "display": "Author's Signature"
                }],
                "when": "2021-06-25T14:33:12.4457116+01:00",
                "who": {
                    "reference": "urn:uuid:605f8a55-355e-4345-b92a-70c4119ba072",
                    "type": "PractitionerRole"
                },
                "data": ""
            }]
        }
    }]
}