{
    "resourceType": "Bundle",
    "id": "ac23f34d-a522-43aa-aec7-82f225fe5d19",
    "identifier": {
        "system": "https://tools.ietf.org/html/rfc4122",
        "value": "04bb25b1-2bd0-4ede-b3dc-09b10ee83b20"
    },
    "type": "message",
    "entry": [{
        "fullUrl": "urn:uuid:ac23f34d-a522-43aa-aec7-82f225fe5d19",
        "resource": {
            "resourceType": "MessageHeader",
            "id": "72d5b7d4-e992-4f34-a70d-c6e0299d7f81",
            "eventCoding": {
                "system": "https://fhir.nhs.uk/CodeSystem/message-event",
                "code": "prescription-order",
                "display": "Prescription Order"
            },
            "destination": [{
                "endpoint": "urn:nhs-uk:addressing:ods:FCW64",
                "receiver": {
                    "identifier": {
                        "system": "https://fhir.nhs.uk/Id/ods-organization-code",
                        "value": "FCW64"
                    }
                }
            }],
            "sender": {
                "reference": "urn:uuid:102cff7c-6402-425a-88e6-e890515b006c",
                "identifier": {
                    "system": "https://fhir.nhs.uk/Id/ods-organization-code",
                    "value": "694X0"
                },
                "display": "Clark|Jackie"
            },
            "source": {
                "endpoint": "urn:nhs-uk:addressing:ods:694X0"
            },
            "focus": [{
                "reference": "urn:uuid:ef620492-e3b0-4498-a5c0-621f1023e7ff",
                "type": "MedicationRequest"
            }, {
                "reference": "urn:uuid:310babc1-4fac-464d-8a55-f0ff14ff4a16",
                "type": "Patient"
            }]
        }
    }, {
        "fullUrl": "urn:uuid:310babc1-4fac-464d-8a55-f0ff14ff4a16",
        "resource": {
            "resourceType": "Patient",
            "id": "310babc1-4fac-464d-8a55-f0ff14ff4a16",
            "identifier": [{
                "extension": [{
                    "url": "https://fhir.hl7.org.uk/StructureDefinition/Extension-UKCore-NHSNumberVerificationStatus",
                    "valueCodeableConcept": {
                        "coding": [{
                            "system": "https://fhir.hl7.org.uk/CodeSystem/UKCore-NHSNumberVerificationStatus",
                            "code": "01",
                            "display": "Number present and verified"
                        }]
                    }
                }],
                "system": "https://fhir.nhs.uk/Id/nhs-number",
                "value": "9657847419"
            }],
            "name": [{
                "use": "usual",
                "family": "HOMAN",
                "given": ["Amos Lloyd"]
            }],
            "telecom": [{
                "system": "phone",
                "value": "07000123123"
            }],
            "gender": "male",
            "birthDate": "1985-03-12",
            "address": [{
                "use": "home",
                "line": ["1 Dalmatian Way", "Broughton", "BRIGG"],
                "postalCode": "DN20 0ET"
            }],
            "generalPractitioner": [{
                "identifier": {
                    "system": "https://fhir.nhs.uk/Id/ods-organization-code",
                    "value": "A20047"
                }
            }]
        }
    }, {
        "fullUrl": "urn:uuid:1cfba9bd-f84a-4130-b2a7-505360c36753",
        "resource": {
            "resourceType": "Practitioner",
            "id": "1cfba9bd-f84a-4130-b2a7-505360c36753",
            "identifier": [{
                "system": "https://fhir.nhs.uk/Id/sds-user-id",
                "value": "555252291108"
            }, {
                "system": "https://fhir.hl7.org.uk/Id/gmc-number",
                "value": "1231234"
            }],
            "name": [{
                "use": "usual",
                "family": "Clark",
                "given": ["Jackie"]
            }],
            "gender": "unknown"
        }
    }, {
        "fullUrl": "urn:uuid:102cff7c-6402-425a-88e6-e890515b006c",
        "resource": {
            "resourceType": "PractitionerRole",
            "id": "102cff7c-6402-425a-88e6-e890515b006c",
            "identifier": [{
                "system": "https://fhir.nhs.uk/Id/sds-role-profile-id",
                "value": "555086415105"
            }],
            "practitioner": {
                "reference": "urn:uuid:1cfba9bd-f84a-4130-b2a7-505360c36753"
            },
            "organization": {
                "reference": "urn:uuid:cf2547eb-ac4c-4733-b0b2-963a6426a8d5"
            },
            "code": [{
                "coding": [{
                    "system": "https://fhir.hl7.org.uk/CodeSystem/UKCore-SDSJobRoleName",
                    "code": "R8000",
                    "display": "Clinical Practitioner Access Role"
                }]
            }],
            "healthcareService": [{
                "reference": "urn:uuid:781e256c-605b-4753-bcd6-23e3b60f3f38",
                "display": "SOUTHAMPTON GENERAL HOSPITAL LABORATORY"
            }],
            "telecom": [{
                "system": "phone",
                "value": "02380798431",
                "use": "work"
            }]
        }
    }, {
        "fullUrl": "urn:uuid:cf2547eb-ac4c-4733-b0b2-963a6426a8d5",
        "resource": {
            "resourceType": "Organization",
            "id": "cf2547eb-ac4c-4733-b0b2-963a6426a8d5",
            "identifier": [{
                "system": "https://fhir.nhs.uk/Id/ods-organization-code",
                "value": "694X0"
            }],
            "type": [{
                "coding": [{
                    "system": "https://fhir.nhs.uk/CodeSystem/organisation-role",
                    "code": "173",
                    "display": "PATHOLOGY LAB"
                }]
            }],
            "name": "SOUTHAMPTON GENERAL HOSPITAL LABORATORY",
            "telecom": [{
                "system": "phone",
                "value": "02380798431",
                "use": "work"
            }],
            "address": [{
                "line": ["SOUTHAMPTON GENERAL HOSPITAL", "TREMONA ROAD", "SOUTHAMPTON", "HAMPSHIRE"],
                "postalCode": "SO16 6YD"
            }]
        }
    }, {
        "fullUrl": "urn:uuid:781e256c-605b-4753-bcd6-23e3b60f3f38",
        "resource": {
            "resourceType": "HealthcareService",
            "id": "781e256c-605b-4753-bcd6-23e3b60f3f38",
            "identifier": [{
                "use": "usual",
                "system": "https://fhir.nhs.uk/Id/ods-organization-code",
                "value": "694X0"
            }],
            "active": true,
            "providedBy": {
                "identifier": {
                    "system": "https://fhir.nhs.uk/Id/ods-organization-code",
                    "value": "694X0"
                }
            },
            "location": [{
                "reference": "urn:uuid:f7ff7e51-2abb-4338-a6ce-f4ad08ea094c"
            }],
            "name": "SOUTHAMPTON GENERAL HOSPITAL LABORATORY",
            "telecom": [{
                "system": "phone",
                "value": "02380798431",
                "use": "work"
            }]
        }
    }, {
        "fullUrl": "urn:uuid:f7ff7e51-2abb-4338-a6ce-f4ad08ea094c",
        "resource": {
            "resourceType": "Location",
            "id": "f7ff7e51-2abb-4338-a6ce-f4ad08ea094c",
            "status": "active",
            "mode": "instance",
            "address": {
                "line": ["SOUTHAMPTON GENERAL HOSPITAL", "TREMONA ROAD", "SOUTHAMPTON"],
                "postalCode": "SO16 6YD"
            }
        }
    }, {
        "fullUrl": "urn:uuid:ef620492-e3b0-4498-a5c0-621f1023e7ff",
        "resource": {
            "resourceType": "MedicationRequest",
            "id": "ef620492-e3b0-4498-a5c0-621f1023e7ff",
            "extension": [{
                "url": "https://fhir.nhs.uk/StructureDefinition/Extension-DM-PrescriptionType",
                "valueCoding": {
                    "system": "https://fhir.nhs.uk/CodeSystem/prescription-type",
                    "code": "1001",
                    "display": "Outpatient Community Prescriber - Medical Prescriber"
                }
            }],
            "identifier": [{
                "system": "https://fhir.nhs.uk/Id/prescription-order-item-number",
                "value": "ef620492-e3b0-4498-a5c0-621f1023e7ff"
            }],
            "status": "active",
            "intent": "order",
            "category": [{
                "coding": [{
                    "system": "http://terminology.hl7.org/CodeSystem/medicationrequest-category",
                    "code": "outpatient",
                    "display": "Outpatient"
                }]
            }],
            "medicationCodeableConcept": {
                "coding": [{
                    "system": "http://snomed.info/sct",
                    "code": "4225011000001104",
                    "display": "Phenylephrine 10% eye drops 0.5ml unit dose preservative free"
                }]
            },
            "subject": {
                "reference": "urn:uuid:310babc1-4fac-464d-8a55-f0ff14ff4a16"
            },
            "authoredOn": "2021-06-25T15:03:04+01:00",
            "requester": {
                "reference": "urn:uuid:102cff7c-6402-425a-88e6-e890515b006c"
            },
            "groupIdentifier": {
                "extension": [{
                    "url": "https://fhir.nhs.uk/StructureDefinition/Extension-DM-PrescriptionId",
                    "valueIdentifier": {
                        "system": "https://fhir.nhs.uk/Id/prescription",
                        "value": "75e6a9a2-871a-457e-beaa-64fc375ae28e"
                    }
                }],
                "system": "https://fhir.nhs.uk/Id/prescription-order-number",
                "value": "A355F3-0694X0-0250C2"
            },
            "courseOfTherapyType": {
                "coding": [{
                    "system": "http://terminology.hl7.org/CodeSystem/medicationrequest-course-of-therapy",
                    "code": "acute",
                    "display": "Short course (acute) therapy"
                }]
            },
            "dosageInstruction": [{
                "text": "test prescription"
            }],
            "dispenseRequest": {
                "extension": [{
                    "url": "https://fhir.nhs.uk/StructureDefinition/Extension-DM-PerformerSiteType",
                    "valueCoding": {
                        "system": "https://fhir.nhs.uk/CodeSystem/dispensing-site-preference",
                        "code": "P1",
                        "display": "Other (e.g. Community Pharmacy)"
                    }
                }],
                "quantity": {
                    "value": 123,
                    "unit": "unit dose",
                    "system": "http://snomed.info/sct",
                    "code": "3319711000001103"
                },
                "performer": {
                    "identifier": {
                        "system": "https://fhir.nhs.uk/Id/ods-organization-code",
                        "value": "FCW64"
                    }
                }
            },
            "substitution": {
                "allowedBoolean": false
            }
        }
    }, {
        "fullUrl": "urn:uuid:b2ea122b-eac9-4e05-b1dd-61d46ad5eb79",
        "resource": {
            "resourceType": "Provenance",
            "id": "b2ea122b-eac9-4e05-b1dd-61d46ad5eb79",
            "target": [{
                "reference": "urn:uuid:ef620492-e3b0-4498-a5c0-621f1023e7ff",
                "type": "MedicationRequest"
            }],
            "recorded": "2021-06-25T15:03:05.9877725+01:00",
            "agent": [{
                "who": {
                    "reference": "urn:uuid:102cff7c-6402-425a-88e6-e890515b006c",
                    "type": "PractitionerRole"
                }
            }],
            "signature": [{
                "type": [{
                    "system": "urn:iso-astm:E1762-95:2013",
                    "code": "1.2.840.10065.1.12.1.1",
                    "display": "Author's Signature"
                }],
                "when": "2021-06-25T15:03:05.9877725+01:00",
                "who": {
                    "reference": "urn:uuid:102cff7c-6402-425a-88e6-e890515b006c",
                    "type": "PractitionerRole"
                },
                "data": ""
            }]
        }
    }]
}