{
    "resourceType": "Bundle",
    "id": "60bca59f-ec3f-4bc0-b9a7-5047599caf2c",
    "identifier": {
        "system": "https://tools.ietf.org/html/rfc4122",
        "value": "726292a2-cad7-4f28-9f47-d78f23eb8956"
    },
    "type": "message",
    "entry": [{
        "fullUrl": "urn:uuid:60bca59f-ec3f-4bc0-b9a7-5047599caf2c",
        "resource": {
            "resourceType": "MessageHeader",
            "id": "9a413654-2d44-4d8f-8357-132ab2de6c8f",
            "eventCoding": {
                "system": "https://fhir.nhs.uk/CodeSystem/message-event",
                "code": "prescription-order",
                "display": "Prescription Order"
            },
            "destination": [{
                "endpoint": "urn:nhs-uk:addressing:ods:FCW64",
                "receiver": {
                    "identifier": {
                        "system": "https://fhir.nhs.uk/Id/ods-organization-code",
                        "value": "FCW64"
                    }
                }
            }],
            "sender": {
                "reference": "urn:uuid:c7ee88dc-7620-42bb-be75-c9ddbae34394",
                "identifier": {
                    "system": "https://fhir.nhs.uk/Id/ods-organization-code",
                    "value": "694X0"
                },
                "display": "Clark|Jackie"
            },
            "source": {
                "endpoint": "urn:nhs-uk:addressing:ods:694X0"
            },
            "focus": [{
                "reference": "urn:uuid:0ef0434e-9048-46af-bfa3-3bbf06611d2a",
                "type": "MedicationRequest"
            }, {
                "reference": "urn:uuid:4684b38f-bedc-48a1-b2c4-2c1aa014170d",
                "type": "Patient"
            }]
        }
    }, {
        "fullUrl": "urn:uuid:4684b38f-bedc-48a1-b2c4-2c1aa014170d",
        "resource": {
            "resourceType": "Patient",
            "id": "4684b38f-bedc-48a1-b2c4-2c1aa014170d",
            "identifier": [{
                "extension": [{
                    "url": "https://fhir.hl7.org.uk/StructureDefinition/Extension-UKCore-NHSNumberVerificationStatus",
                    "valueCodeableConcept": {
                        "coding": [{
                            "system": "https://fhir.hl7.org.uk/CodeSystem/UKCore-NHSNumberVerificationStatus",
                            "code": "01",
                            "display": "Number present and verified"
                        }]
                    }
                }],
                "system": "https://fhir.nhs.uk/Id/nhs-number",
                "value": "9657847419"
            }],
            "name": [{
                "use": "usual",
                "family": "HOMAN",
                "given": ["Amos Lloyd"]
            }],
            "telecom": [{
                "system": "phone",
                "value": "07000123123"
            }],
            "gender": "male",
            "birthDate": "1985-03-12",
            "address": [{
                "use": "home",
                "line": ["1 Dalmatian Way", "Broughton", "BRIGG"],
                "postalCode": "DN20 0ET"
            }],
            "generalPractitioner": [{
                "identifier": {
                    "system": "https://fhir.nhs.uk/Id/ods-organization-code",
                    "value": "A20047"
                }
            }]
        }
    }, {
        "fullUrl": "urn:uuid:379f4a57-3c60-44a2-a6a2-17905d252350",
        "resource": {
            "resourceType": "Practitioner",
            "id": "379f4a57-3c60-44a2-a6a2-17905d252350",
            "identifier": [{
                "system": "https://fhir.nhs.uk/Id/sds-user-id",
                "value": "555252291108"
            }, {
                "system": "https://fhir.hl7.org.uk/Id/gmc-number",
                "value": "1231234"
            }],
            "name": [{
                "use": "usual",
                "family": "Clark",
                "given": ["Jackie"]
            }],
            "gender": "unknown"
        }
    }, {
        "fullUrl": "urn:uuid:c7ee88dc-7620-42bb-be75-c9ddbae34394",
        "resource": {
            "resourceType": "PractitionerRole",
            "id": "c7ee88dc-7620-42bb-be75-c9ddbae34394",
            "identifier": [{
                "system": "https://fhir.nhs.uk/Id/sds-role-profile-id",
                "value": "555086415105"
            }],
            "practitioner": {
                "reference": "urn:uuid:379f4a57-3c60-44a2-a6a2-17905d252350"
            },
            "organization": {
                "reference": "urn:uuid:1b465b10-c97a-40a9-a019-e7852257b7df"
            },
            "code": [{
                "coding": [{
                    "system": "https://fhir.hl7.org.uk/CodeSystem/UKCore-SDSJobRoleName",
                    "code": "R8000",
                    "display": "Clinical Practitioner Access Role"
                }]
            }],
            "healthcareService": [{
                "reference": "urn:uuid:456ba227-9c2d-41b1-a378-182df393c9eb",
                "display": "SOUTHAMPTON GENERAL HOSPITAL LABORATORY"
            }],
            "telecom": [{
                "system": "phone",
                "value": "02380798431",
                "use": "work"
            }]
        }
    }, {
        "fullUrl": "urn:uuid:1b465b10-c97a-40a9-a019-e7852257b7df",
        "resource": {
            "resourceType": "Organization",
            "id": "1b465b10-c97a-40a9-a019-e7852257b7df",
            "identifier": [{
                "system": "https://fhir.nhs.uk/Id/ods-organization-code",
                "value": "694X0"
            }],
            "type": [{
                "coding": [{
                    "system": "https://fhir.nhs.uk/CodeSystem/organisation-role",
                    "code": "173",
                    "display": "PATHOLOGY LAB"
                }]
            }],
            "name": "SOUTHAMPTON GENERAL HOSPITAL LABORATORY",
            "telecom": [{
                "system": "phone",
                "value": "02380798431",
                "use": "work"
            }],
            "address": [{
                "line": ["SOUTHAMPTON GENERAL HOSPITAL", "TREMONA ROAD", "SOUTHAMPTON", "HAMPSHIRE"],
                "postalCode": "SO16 6YD"
            }]
        }
    }, {
        "fullUrl": "urn:uuid:456ba227-9c2d-41b1-a378-182df393c9eb",
        "resource": {
            "resourceType": "HealthcareService",
            "id": "456ba227-9c2d-41b1-a378-182df393c9eb",
            "identifier": [{
                "use": "usual",
                "system": "https://fhir.nhs.uk/Id/ods-organization-code",
                "value": "694X0"
            }],
            "active": true,
            "providedBy": {
                "identifier": {
                    "system": "https://fhir.nhs.uk/Id/ods-organization-code",
                    "value": "694X0"
                }
            },
            "location": [{
                "reference": "urn:uuid:18dcd14b-301d-4365-99da-c6f6d198b47c"
            }],
            "name": "SOUTHAMPTON GENERAL HOSPITAL LABORATORY",
            "telecom": [{
                "system": "phone",
                "value": "02380798431",
                "use": "work"
            }]
        }
    }, {
        "fullUrl": "urn:uuid:18dcd14b-301d-4365-99da-c6f6d198b47c",
        "resource": {
            "resourceType": "Location",
            "id": "18dcd14b-301d-4365-99da-c6f6d198b47c",
            "status": "active",
            "mode": "instance",
            "address": {
                "line": ["SOUTHAMPTON GENERAL HOSPITAL", "TREMONA ROAD", "SOUTHAMPTON"],
                "postalCode": "SO16 6YD"
            }
        }
    }, {
        "fullUrl": "urn:uuid:0ef0434e-9048-46af-bfa3-3bbf06611d2a",
        "resource": {
            "resourceType": "MedicationRequest",
            "id": "0ef0434e-9048-46af-bfa3-3bbf06611d2a",
            "extension": [{
                "url": "https://fhir.nhs.uk/StructureDefinition/Extension-DM-PrescriptionType",
                "valueCoding": {
                    "system": "https://fhir.nhs.uk/CodeSystem/prescription-type",
                    "code": "1001",
                    "display": "Outpatient Community Prescriber - Medical Prescriber"
                }
            }],
            "identifier": [{
                "system": "https://fhir.nhs.uk/Id/prescription-order-item-number",
                "value": "0ef0434e-9048-46af-bfa3-3bbf06611d2a"
            }],
            "status": "active",
            "intent": "order",
            "category": [{
                "coding": [{
                    "system": "http://terminology.hl7.org/CodeSystem/medicationrequest-category",
                    "code": "outpatient",
                    "display": "Outpatient"
                }]
            }],
            "medicationCodeableConcept": {
                "coding": [{
                    "system": "http://snomed.info/sct",
                    "code": "35901911000001104",
                    "display": "Amoxicillin 125mg/5ml oral suspension sugar free"
                }]
            },
            "subject": {
                "reference": "urn:uuid:4684b38f-bedc-48a1-b2c4-2c1aa014170d"
            },
            "authoredOn": "2021-06-25T14:28:35+01:00",
            "requester": {
                "reference": "urn:uuid:c7ee88dc-7620-42bb-be75-c9ddbae34394"
            },
            "groupIdentifier": {
                "extension": [{
                    "url": "https://fhir.nhs.uk/StructureDefinition/Extension-DM-PrescriptionId",
                    "valueIdentifier": {
                        "system": "https://fhir.nhs.uk/Id/prescription",
                        "value": "428fcd63-a6ea-4549-8548-ec6147a26ad7"
                    }
                }],
                "system": "https://fhir.nhs.uk/Id/prescription-order-number",
                "value": "58ACB5-0694X0-02500D"
            },
            "courseOfTherapyType": {
                "coding": [{
                    "system": "http://terminology.hl7.org/CodeSystem/medicationrequest-course-of-therapy",
                    "code": "acute",
                    "display": "Short course (acute) therapy"
                }]
            },
            "dosageInstruction": [{
                "text": "2 Four Times Daily"
            }],
            "dispenseRequest": {
                "extension": [{
                    "url": "https://fhir.nhs.uk/StructureDefinition/Extension-DM-PerformerSiteType",
                    "valueCoding": {
                        "system": "https://fhir.nhs.uk/CodeSystem/dispensing-site-preference",
                        "code": "P1",
                        "display": "Other (e.g. Community Pharmacy)"
                    }
                }],
                "quantity": {
                    "value": 250,
                    "unit": "ml",
                    "system": "http://snomed.info/sct",
                    "code": "258773002"
                },
                "performer": {
                    "identifier": {
                        "system": "https://fhir.nhs.uk/Id/ods-organization-code",
                        "value": "FCW64"
                    }
                }
            },
            "substitution": {
                "allowedBoolean": false
            }
        }
    }, {
        "fullUrl": "urn:uuid:ddcb6d44-349d-4428-b08f-bc278d26d50e",
        "resource": {
            "resourceType": "Provenance",
            "id": "ddcb6d44-349d-4428-b08f-bc278d26d50e",
            "target": [{
                "reference": "urn:uuid:0ef0434e-9048-46af-bfa3-3bbf06611d2a",
                "type": "MedicationRequest"
            }],
            "recorded": "2021-06-25T14:28:37.2560841+01:00",
            "agent": [{
                "who": {
                    "reference": "urn:uuid:c7ee88dc-7620-42bb-be75-c9ddbae34394",
                    "type": "PractitionerRole"
                }
            }],
            "signature": [{
                "type": [{
                    "system": "urn:iso-astm:E1762-95:2013",
                    "code": "1.2.840.10065.1.12.1.1",
                    "display": "Author's Signature"
                }],
                "when": "2021-06-25T14:28:37.2560841+01:00",
                "who": {
                    "reference": "urn:uuid:c7ee88dc-7620-42bb-be75-c9ddbae34394",
                    "type": "PractitionerRole"
                },
                "data": ""
            }]
        }
    }]
}